# Created by:        SpecsLab Prodigy, Version 4.50.2-r79252 
#
# XY-Serializer Export Settings:
#   Comment Prefix:           #
#   Output meta data:         yes
#   Energy Axis:              Binding Energy
#   Count Rate:               Counts per Second
#   Separate Scan Data:       no
#   Separate Channel Data:    no
#   External Channel Data:    yes
#   Transmission Function:    no
#   ErrorBar:                 no
#   Operation Results:        yes
#   Time Zone Format:         UTC
#
# Group:             Spectrum Group 35
#
# Region:            Si2p
# Acquisition Date:  10/25/19 18:52:19 UTC
# Analysis Method:   XPS
# Analyzer:          Phoibos
# Analyzer Lens:     MediumArea:1.5kV
# Analyzer Slit:     5:7x20\B:open
# Scan Mode:         FixedAnalyzerTransmission
# Curves/Scan:       1
# Values/Curve:      151
# Dwell Time:        0.1
# Excitation Energy: 1486.71
# Binding Energy:    110
# Pass Energy:       10
# Bias Voltage:      90
# Detector Voltage:  1900
# Eff. Workfunction: 4.395
# Source:            Focus
# Comment:           
#
# Cycle: 0
# Number of Scans: 12
#
# Cycle: 0, Curve: 0
# Acquisition Date: 10/25/19 18:52:19 UTC
#
# ColumnLabels: energy counts/s
#
110  120.59464
109.9  121.02655
109.8  111.96224
109.7  112.95199
109.6  122.2695
109.5  104.17407
109.4  102.65122
109.3  106.51614
109.2  124.35345
109.1  105.08156
109  105.2736
108.9  105.47336
108.8  99.888873
108.7  103.76692
108.6  103.80497
108.5  112.91534
108.4  113.7057
108.3  114.85356
108.2  118.07423
108.1  108.50314
108  120.04541
107.9  92.700576
107.8  114.68071
107.7  114.04746
107.6  120.43533
107.5  99.324361
107.4  92.039762
107.3  124.83769
107.2  142.09124
107.1  141.50651
107  140.07466
106.9  145.14819
106.8  167.32019
106.7  219.76974
106.6  244.73403
106.5  277.00133
106.4  318.92895
106.3  397.86064
106.2  509.2753
106.1  645.54449
106  775.1252
105.9  978.92344
105.8  1190.9178
105.7  1421.3145
105.6  1565.7075
105.5  1854.9415
105.4  2111.1293
105.3  2345.2037
105.2  2559.9976
105.1  2715.9484
105  2982.2774
104.9  2968.7195
104.8  2938.7034
104.7  2922.8118
104.6  2759.7903
104.5  2545.7111
104.4  2257.5771
104.3  1987.6982
104.2  1676.5093
104.1  1413.7881
104  1173.5654
103.9  929.13699
103.8  758.01884
103.7  585.99016
103.6  505.82026
103.5  372.40234
103.4  300.0229
103.3  296.06497
103.2  258.15156
103.1  211.50862
103  187.4414
102.9  189.55251
102.8  168.82585
102.7  159.88897
102.6  154.44416
102.5  154.54595
102.4  132.37233
102.3  142.29492
102.2  115.98577
102.1  107.78373
102  105.15345
101.9  113.68488
101.8  117.86869
101.7  141.20066
101.6  117.309
101.5  105.50636
101.4  119.87576
101.3  123.79555
101.2  125.02517
101.1  133.54599
101  179.94272
100.9  236.87071
100.8  285.59384
100.7  384.68035
100.6  498.10341
100.5  561.04513
100.4  648.46597
100.3  727.79132
100.2  689.77442
100.1  686.80743
100  790.90865
99.9  929.25292
99.8  937.16564
99.7  820.76764
99.6  640.50675
99.5  383.36387
99.4  203.20243
99.3  151.35957
99.2  115.40917
99.1  91.013214
99  90.836676
98.9  95.835389
98.8  86.387921
98.7  83.981924
98.6  81.355931
98.5  75.419828
98.4  71.999622
98.3  69.495552
98.2  65.279261
98.1  61.193951
98  76.15977
97.9  74.651835
97.8  67.537043
97.7  64.458835
97.6  65.613477
97.5  65.091231
97.4  71.490539
97.3  79.669138
97.2  64.194472
97.1  79.478683
97  66.264653
96.9  68.399839
96.8  73.556314
96.7  72.937794
96.6  65.442561
96.5  70.910473
96.4  68.969873
96.3  69.831174
96.2  73.13661
96.1  73.142769
96  65.026335
95.9  64.460941
95.8  74.481175
95.7  65.595049
95.6  69.616455
95.5  72.817869
95.4  76.731441
95.3  72.949624
95.2  82.411365
95.1  81.697776
95  73.825754

