# Created by:        SpecsLab Prodigy, Version 4.50.2-r79252 
#
# XY-Serializer Export Settings:
#   Comment Prefix:           #
#   Output meta data:         yes
#   Energy Axis:              Binding Energy
#   Count Rate:               Counts per Second
#   Separate Scan Data:       no
#   Separate Channel Data:    no
#   External Channel Data:    yes
#   Transmission Function:    no
#   ErrorBar:                 no
#   Operation Results:        yes
#   Time Zone Format:         UTC
#
# Group:             Spectrum Group 15
#
# Region:            Si2p
# Acquisition Date:  10/25/19 18:01:34 UTC
# Analysis Method:   XPS
# Analyzer:          Phoibos
# Analyzer Lens:     MediumArea:1.5kV
# Analyzer Slit:     5:7x20\B:open
# Scan Mode:         FixedAnalyzerTransmission
# Curves/Scan:       1
# Values/Curve:      151
# Dwell Time:        0.1
# Excitation Energy: 1486.71
# Binding Energy:    110
# Pass Energy:       10
# Bias Voltage:      90
# Detector Voltage:  1900
# Eff. Workfunction: 4.395
# Source:            Focus
# Comment:           
#
# Cycle: 0
# Number of Scans: 12
#
# Cycle: 0, Curve: 0
# Acquisition Date: 10/25/19 18:01:34 UTC
#
# ColumnLabels: energy counts/s
#
110  137.20972
109.9  155.9331
109.8  138.56456
109.7  150.36438
109.6  141.86382
109.5  154.74176
109.4  145.63553
109.3  144.49632
109.2  145.23953
109.1  161.71689
109  151.32538
108.9  129.23381
108.8  146.88945
108.7  142.70778
108.6  145.76151
108.5  125.57948
108.4  146.23305
108.3  136.65851
108.2  154.83678
108.1  137.99999
108  132.34918
107.9  138.09502
107.8  139.25524
107.7  143.73908
107.6  164.52023
107.5  155.4013
107.4  161.15264
107.3  171.4289
107.2  179.49982
107.1  191.86685
107  198.75965
106.9  239.8918
106.8  255.35485
106.7  322.81942
106.6  368.95034
106.5  450.43423
106.4  543.81245
106.3  677.73244
106.2  785.17679
106.1  1006.4066
106  1165.826
105.9  1411.8657
105.8  1725.9031
105.7  2011.3639
105.6  2279.678
105.5  2564.0037
105.4  2838.2602
105.3  3126.3354
105.2  3327.9278
105.1  3543.8324
105  3711.4925
104.9  3672.9266
104.8  3664.7552
104.7  3600.2969
104.6  3408.0349
104.5  3091.236
104.4  2727.1223
104.3  2406.0832
104.2  2074.6537
104.1  1754.7171
104  1436.228
103.9  1135.3636
103.8  923.41959
103.7  765.04082
103.6  599.03463
103.5  456.2463
103.4  391.89226
103.3  335.8175
103.2  278.94262
103.1  247.65455
103  235.57467
102.9  230.42318
102.8  198.07927
102.7  196.16458
102.6  194.82386
102.5  194.47975
102.4  195.46997
102.3  179.315
102.2  153.72525
102.1  158.23593
102  150.90672
101.9  135.58884
101.8  148.01931
101.7  145.68631
101.6  138.75332
101.5  150.75497
101.4  165.44479
101.3  180.69207
101.2  172.55588
101.1  211.40464
101  254.04393
100.9  329.89667
100.8  451.27001
100.7  578.29736
100.6  759.83194
100.5  895.40769
100.4  967.63042
100.3  948.61447
100.2  964.14776
100.1  1036.1065
100  1225.1725
99.9  1385.6591
99.8  1382.0486
99.7  1167.4237
99.6  784.89182
99.5  449.77987
99.4  241.34315
99.3  141.7235
99.2  115.82233
99.1  113.91915
99  103.96173
98.9  102.22876
98.8  99.647887
98.7  83.526396
98.6  103.45821
98.5  104.78848
98.4  97.613313
98.3  103.40895
98.2  94.356248
98.1  87.812414
98  97.880634
97.9  105.81455
97.8  104.62534
97.7  95.483221
97.6  103.25375
97.5  92.383563
97.4  94.039233
97.3  81.642896
97.2  78.296142
97.1  89.927835
97  94.735787
96.9  98.093105
96.8  91.203218
96.7  80.397677
96.6  95.296345
96.5  84.546737
96.4  98.536747
96.3  103.34126
96.2  82.438448
96.1  78.736056
96  90.163955
95.9  98.767358
95.8  87.055646
95.7  100.57541
95.6  90.821906
95.5  98.016902
95.4  89.391144
95.3  89.045674
95.2  88.00017
95.1  86.686323
95  90.575614

