# Created by:        SpecsLab Prodigy, Version 4.50.2-r79252 
#
# XY-Serializer Export Settings:
#   Comment Prefix:           #
#   Output meta data:         yes
#   Energy Axis:              Binding Energy
#   Count Rate:               Counts per Second
#   Separate Scan Data:       no
#   Separate Channel Data:    no
#   External Channel Data:    yes
#   Transmission Function:    no
#   ErrorBar:                 no
#   Operation Results:        yes
#   Time Zone Format:         UTC
#
# Group:             Spectrum Group 45
#
# Region:            Si2p
# Acquisition Date:  10/25/19 19:18:37 UTC
# Analysis Method:   XPS
# Analyzer:          Phoibos
# Analyzer Lens:     MediumArea:1.5kV
# Analyzer Slit:     5:7x20\B:open
# Scan Mode:         FixedAnalyzerTransmission
# Curves/Scan:       1
# Values/Curve:      151
# Dwell Time:        0.1
# Excitation Energy: 1486.71
# Binding Energy:    110
# Pass Energy:       10
# Bias Voltage:      90
# Detector Voltage:  1900
# Eff. Workfunction: 4.395
# Source:            Focus
# Comment:           
#
# Cycle: 0
# Number of Scans: 12
#
# Cycle: 0, Curve: 0
# Acquisition Date: 10/25/19 19:18:37 UTC
#
# ColumnLabels: energy counts/s
#
110  94.397064
109.9  90.64785
109.8  99.07172
109.7  91.507134
109.6  87.986543
109.5  95.977193
109.4  92.149466
109.3  93.268688
109.2  96.099321
109.1  96.572963
109  100.69653
108.9  104.54172
108.8  95.098257
108.7  82.992387
108.6  89.370928
108.5  99.479615
108.4  85.825501
108.3  79.824685
108.2  85.821538
108.1  83.747756
108  85.676821
107.9  96.443296
107.8  100.7112
107.7  85.486324
107.6  91.825127
107.5  107.13428
107.4  107.55186
107.3  109.13291
107.2  110.51961
107.1  126.7823
107  138.35791
106.9  146.43551
106.8  170.37413
106.7  182.24734
106.6  231.4606
106.5  306.19939
106.4  369.04053
106.3  434.09927
106.2  539.72936
106.1  661.09174
106  844.95148
105.9  1023.4709
105.8  1223.5073
105.7  1462.1741
105.6  1671.2634
105.5  1843.2847
105.4  2062.1456
105.3  2213.46
105.2  2467.4633
105.1  2570.9431
105  2529.2435
104.9  2577.7179
104.8  2610.4222
104.7  2531.4465
104.6  2399.477
104.5  2188.0514
104.4  1963.925
104.3  1685.3826
104.2  1419.4934
104.1  1185.18
104  914.31804
103.9  710.40737
103.8  579.20359
103.7  452.30896
103.6  396.28165
103.5  294.71108
103.4  260.81267
103.3  225.52941
103.2  189.91869
103.1  186.48382
103  165.72858
102.9  166.08644
102.8  153.31698
102.7  140.81614
102.6  121.83358
102.5  118.64202
102.4  114.66483
102.3  103.38799
102.2  100.79818
102.1  91.82688
102  110.38984
101.9  90.599457
101.8  91.065708
101.7  116.20101
101.6  95.535555
101.5  105.2861
101.4  110.90134
101.3  108.18054
101.2  129.06714
101.1  137.17094
101  159.8061
100.9  175.58105
100.8  245.87468
100.7  330.94295
100.6  389.43797
100.5  403.42357
100.4  424.37063
100.3  440.30047
100.2  445.26876
100.1  525.6128
100  566.13674
99.9  659.94307
99.8  560.91942
99.7  452.68986
99.6  301.37503
99.5  174.37656
99.4  115.17782
99.3  88.597358
99.2  77.927715
99.1  76.185089
99  75.685655
98.9  64.844225
98.8  71.848172
98.7  76.559293
98.6  76.629672
98.5  72.037717
98.4  74.374838
98.3  78.147998
98.2  53.813894
98.1  62.854377
98  61.327039
97.9  68.64581
97.8  72.413069
97.7  63.310459
97.6  65.829994
97.5  59.412054
97.4  61.444913
97.3  63.225802
97.2  57.634627
97.1  66.361864
97  54.406268
96.9  62.103684
96.8  64.955298
96.7  64.63533
96.6  64.061576
96.5  75.501406
96.4  49.299358
96.3  60.076265
96.2  62.175885
96.1  66.84895
96  78.190704
95.9  65.23062
95.8  59.640232
95.7  63.965135
95.6  68.325984
95.5  55.1164
95.4  60.203513
95.3  59.490032
95.2  63.18346
95.1  62.850823
95  62.768914

