# Created by:        SpecsLab Prodigy, Version 4.50.2-r79252 
#
# XY-Serializer Export Settings:
#   Comment Prefix:           #
#   Output meta data:         yes
#   Energy Axis:              Binding Energy
#   Count Rate:               Counts per Second
#   Separate Scan Data:       no
#   Separate Channel Data:    no
#   External Channel Data:    yes
#   Transmission Function:    no
#   ErrorBar:                 no
#   Operation Results:        yes
#   Time Zone Format:         UTC
#
# Group:             Spectrum Group 15
#
# Region:            Si2p
# Acquisition Date:  10/31/19 00:58:55 UTC
# Analysis Method:   XPS
# Analyzer:          Phoibos
# Analyzer Lens:     MediumArea:1.5kV
# Analyzer Slit:     5:7x20\B:open
# Scan Mode:         FixedAnalyzerTransmission
# Curves/Scan:       1
# Values/Curve:      161
# Dwell Time:        0.1
# Excitation Energy: 1486.71
# Binding Energy:    108
# Pass Energy:       10
# Bias Voltage:      90
# Detector Voltage:  1900
# Eff. Workfunction: 4.395
# Source:            Focus
# Comment:           
#
# Cycle: 0
# Number of Scans: 15
#
# Cycle: 0, Curve: 0
# Acquisition Date: 10/31/19 00:58:55 UTC
#
# ColumnLabels: energy counts/s
#
108  122.75653
107.9  115.07566
107.8  112.69854
107.7  113.35197
107.6  115.57477
107.5  112.51412
107.4  122.27712
107.3  115.56977
107.2  118.25643
107.1  110.8798
107  126.00973
106.9  125.42901
106.8  120.50708
106.7  121.80341
106.6  128.11729
106.5  136.44056
106.4  128.02852
106.3  132.94915
106.2  151.69893
106.1  167.17877
106  179.25768
105.9  217.42601
105.8  260.81048
105.7  330.01992
105.6  390.34286
105.5  483.58354
105.4  621.19705
105.3  757.80275
105.2  932.66079
105.1  1134.7055
105  1397.4314
104.9  1592.0781
104.8  1830.8278
104.7  2046.5079
104.6  2296.3894
104.5  2515.6004
104.4  2604.2082
104.3  2715.2614
104.2  2822.4031
104.1  2691.7544
104  2575.4977
103.9  2536.7749
103.8  2219.8895
103.7  2061.4099
103.6  1766.8408
103.5  1590.699
103.4  1396.7592
103.3  1256.6177
103.2  1096.1291
103.1  1039.8777
103  1016.3906
102.9  923.2886
102.8  903.51899
102.7  902.30689
102.6  858.6895
102.5  804.0286
102.4  741.14122
102.3  627.48374
102.2  554.9169
102.1  445.4843
102  373.87513
101.9  279.65097
101.8  222.31223
101.7  190.11147
101.6  175.55978
101.5  152.86613
101.4  154.45316
101.3  149.83927
101.2  142.71845
101.1  124.85912
101  117.52856
100.9  137.37802
100.8  116.64258
100.7  116.71167
100.6  132.12558
100.5  131.74726
100.4  123.05078
100.3  125.42168
100.2  129.7228
100.1  125.79384
100  121.3938
99.9  123.03748
99.8  120.35826
99.7  125.88768
99.6  122.92081
99.5  115.77171
99.4  111.73682
99.3  109.15211
99.2  107.28862
99.1  116.45338
99  106.67722
98.9  117.41234
98.8  122.85465
98.7  115.59946
98.6  110.47694
98.5  112.43815
98.4  115.17837
98.3  113.88306
98.2  106.96755
98.1  112.35895
98  119.32599
97.9  121.13234
97.8  113.82239
97.7  116.57268
97.6  108.96348
97.5  101.32397
97.4  93.348616
97.3  110.2133
97.2  111.17438
97.1  92.898965
97  105.30952
96.9  94.614729
96.8  103.85657
96.7  108.7363
96.6  112.61032
96.5  110.93544
96.4  122.32018
96.3  105.2718
96.2  123.66914
96.1  123.23744
96  110.1832
95.9  115.4519
95.8  106.92531
95.7  111.26547
95.6  113.69783
95.5  103.14566
95.4  114.75675
95.3  104.23055
95.2  113.10525
95.1  115.54033
95  115.13381
94.9  107.40947
94.8  103.83598
94.7  112.72128
94.6  110.95947
94.5  108.10806
94.4  101.63861
94.3  101.34598
94.2  107.31064
94.1  116.98246
94  112.72709
93.9  96.151325
93.8  116.71178
93.7  104.67964
93.6  109.97035
93.5  116.86914
93.4  118.5384
93.3  110.84953
93.2  110.52815
93.1  111.48015
93  116.08605
92.9  114.88434
92.8  111.24926
92.7  113.66682
92.6  107.16239
92.5  120.86911
92.4  109.50718
92.3  118.62596
92.2  115.57723
92.1  114.92159
92  115.32526

