# Created by:        SpecsLab Prodigy, Version 4.50.2-r79252 
#
# XY-Serializer Export Settings:
#   Comment Prefix:           #
#   Output meta data:         yes
#   Energy Axis:              Binding Energy
#   Count Rate:               Counts per Second
#   Separate Scan Data:       no
#   Separate Channel Data:    no
#   External Channel Data:    yes
#   Transmission Function:    no
#   ErrorBar:                 no
#   Operation Results:        yes
#   Time Zone Format:         UTC
#
# Group:             Spectrum Group 0
#
# Region:            Si2p
# Acquisition Date:  10/30/19 23:51:53 UTC
# Analysis Method:   XPS
# Analyzer:          Phoibos
# Analyzer Lens:     MediumArea:1.5kV
# Analyzer Slit:     5:7x20\B:open
# Scan Mode:         FixedAnalyzerTransmission
# Curves/Scan:       1
# Values/Curve:      421
# Dwell Time:        0.1
# Excitation Energy: 1486.71
# Binding Energy:    137
# Pass Energy:       10
# Bias Voltage:      90
# Detector Voltage:  1900
# Eff. Workfunction: 4.395
# Source:            Focus
# Comment:           
#
# Cycle: 0
# Number of Scans: 15
#
# Cycle: 0, Curve: 0
# Acquisition Date: 10/30/19 23:51:53 UTC
#
# ColumnLabels: energy counts/s
#
137  376.60519
136.9  383.09994
136.8  398.03491
136.7  378.24661
136.6  364.83231
136.5  392.00452
136.4  366.16086
136.3  379.13638
136.2  362.64672
136.1  357.2367
136  371.34712
135.9  363.7667
135.8  394.49321
135.7  381.53364
135.6  386.40706
135.5  379.12035
135.4  389.55336
135.3  372.52008
135.2  368.45679
135.1  394.42946
135  407.34457
134.9  388.75017
134.8  398.48884
134.7  396.42619
134.6  403.87235
134.5  391.26959
134.4  352.69006
134.3  339.50313
134.2  383.95559
134.1  368.8071
134  349.80518
133.9  365.64849
133.8  379.32534
133.7  381.76224
133.6  382.5169
133.5  340.44403
133.4  355.84719
133.3  388.89188
133.2  390.15504
133.1  391.37939
133  364.64413
132.9  362.82428
132.8  359.94024
132.7  402.0251
132.6  395.94349
132.5  391.68927
132.4  389.46705
132.3  384.03889
132.2  396.64352
132.1  394.32791
132  386.72484
131.9  366.16675
131.8  413.65724
131.7  406.60984
131.6  371.39619
131.5  392.94686
131.4  388.98984
131.3  409.98826
131.2  411.9125
131.1  402.54807
131  409.09001
130.9  412.12807
130.8  395.09984
130.7  396.83031
130.6  403.2525
130.5  401.18637
130.4  398.05149
130.3  414.27302
130.2  404.97926
130.1  405.96913
130  447.9998
129.9  423.24162
129.8  434.75784
129.7  420.9826
129.6  415.10346
129.5  425.71935
129.4  414.65416
129.3  424.70722
129.2  411.30393
129.1  445.82521
129  435.20847
128.9  435.81048
128.8  418.47503
128.7  434.00303
128.6  441.96289
128.5  437.93959
128.4  430.55538
128.3  412.03972
128.2  469.20128
128.1  478.92621
128  478.93465
127.9  454.89676
127.8  485.50643
127.7  463.63532
127.6  480.86271
127.5  465.75862
127.4  475.35513
127.3  465.56167
127.2  503.8017
127.1  456.44655
127  432.04828
126.9  418.19882
126.8  456.36643
126.7  472.60639
126.6  468.10868
126.5  461.57108
126.4  441.19876
126.3  461.82418
126.2  462.66445
126.1  436.14192
126  463.12616
125.9  455.05779
125.8  456.62553
125.7  471.38712
125.6  457.20366
125.5  471.48604
125.4  438.77613
125.3  462.4642
125.2  440.68788
125.1  475.90991
125  456.30896
124.9  444.10754
124.8  451.19686
124.7  439.67977
124.6  457.69795
124.5  443.78046
124.4  439.81649
124.3  454.21544
124.2  461.96065
124.1  485.82549
124  471.40885
123.9  447.82554
123.8  428.97236
123.7  420.12822
123.6  434.65947
123.5  454.24095
123.4  467.9403
123.3  431.91838
123.2  440.94335
123.1  427.52054
123  435.14306
122.9  448.15866
122.8  426.66122
122.7  459.29369
122.6  419.59536
122.5  410.83155
122.4  441.43431
122.3  402.44813
122.2  421.0812
122.1  433.71813
122  433.73003
121.9  397.43829
121.8  410.78326
121.7  383.58102
121.6  395.22944
121.5  409.10024
121.4  394.2451
121.3  396.28083
121.2  399.64272
121.1  394.81581
121  392.59777
120.9  398.4202
120.8  424.19181
120.7  390.38377
120.6  400.66678
120.5  374.10511
120.4  364.26178
120.3  396.2705
120.2  379.64888
120.1  383.11564
120  358.16667
119.9  362.87425
119.8  347.04175
119.7  382.73836
119.6  403.29767
119.5  380.80763
119.4  387.29501
119.3  389.00888
119.2  383.75745
119.1  365.95473
119  365.99588
118.9  358.74356
118.8  334.22774
118.7  343.61129
118.6  372.27101
118.5  348.84615
118.4  334.46447
118.3  319.43458
118.2  325.72267
118.1  326.33804
118  333.36623
117.9  317.97081
117.8  305.59817
117.7  335.61839
117.6  308.87408
117.5  308.24154
117.4  333.85291
117.3  346.82101
117.2  308.3007
117.1  294.4353
117  303.07363
116.9  299.49215
116.8  282.33748
116.7  291.43358
116.6  302.35547
116.5  294.34323
116.4  289.77168
116.3  274.78191
116.2  277.61536
116.1  269.94718
116  277.93525
115.9  260.4239
115.8  273.64862
115.7  265.52856
115.6  244.2379
115.5  254.21093
115.4  245.07176
115.3  271.0411
115.2  236.58973
115.1  242.81245
115  247.46198
114.9  255.75239
114.8  221.28155
114.7  237.13068
114.6  229.30248
114.5  214.72302
114.4  213.15022
114.3  204.3596
114.2  220.34735
114.1  211.82404
114  193.8777
113.9  191.87765
113.8  202.25787
113.7  193.44656
113.6  187.21685
113.5  181.24985
113.4  197.13497
113.3  180.91808
113.2  166.42185
113.1  169.20567
113  168.03542
112.9  165.84585
112.8  161.84876
112.7  162.81723
112.6  142.40827
112.5  141.4392
112.4  151.64942
112.3  140.88715
112.2  148.55003
112.1  152.75133
112  153.33542
111.9  149.92537
111.8  147.18649
111.7  137.67073
111.6  137.41172
111.5  139.72907
111.4  147.65523
111.3  132.76404
111.2  154.491
111.1  139.71871
111  150.50085
110.9  144.08978
110.8  137.04067
110.7  129.16784
110.6  137.66737
110.5  131.55498
110.4  145.31146
110.3  129.2687
110.2  124.48764
110.1  125.9986
110  135.95287
109.9  140.73502
109.8  148.60447
109.7  136.54097
109.6  129.41
109.5  137.9695
109.4  136.98236
109.3  138.85233
109.2  126.87466
109.1  131.6941
109  141.69759
108.9  138.80517
108.8  135.59494
108.7  134.06101
108.6  120.24359
108.5  131.21417
108.4  131.95709
108.3  126.50854
108.2  134.25666
108.1  129.36357
108  126.30255
107.9  134.1383
107.8  143.38984
107.7  142.84773
107.6  131.876
107.5  143.95587
107.4  145.61519
107.3  123.04139
107.2  124.39509
107.1  129.51086
107  140.66664
106.9  133.77922
106.8  133.36652
106.7  142.28387
106.6  144.0017
106.5  149.99929
106.4  149.40605
106.3  151.32096
106.2  186.86871
106.1  180.27252
106  179.11091
105.9  234.58314
105.8  255.69634
105.7  328.79829
105.6  421.39902
105.5  500.85936
105.4  620.91087
105.3  786.01357
105.2  959.81176
105.1  1151.8226
105  1433.1219
104.9  1734.6444
104.8  1968.576
104.7  2230.4039
104.6  2451.2458
104.5  2732.5589
104.4  2862.3548
104.3  2935.6991
104.2  3034.7798
104.1  2991.8856
104  2934.9023
103.9  2777.1766
103.8  2534.5827
103.7  2274.6371
103.6  1937.5669
103.5  1761.1484
103.4  1581.2647
103.3  1410.0805
103.2  1292.5524
103.1  1179.466
103  1148.247
102.9  1096.5397
102.8  1115.0108
102.7  1027.6729
102.6  1011.8611
102.5  933.42176
102.4  823.72565
102.3  692.11962
102.2  576.90961
102.1  461.4146
102  361.52058
101.9  293.22687
101.8  220.10791
101.7  195.28548
101.6  174.24141
101.5  153.18857
101.4  154.68558
101.3  148.2332
101.2  142.2381
101.1  136.48229
101  125.69692
100.9  138.68299
100.8  128.12358
100.7  136.3024
100.6  138.62715
100.5  153.82878
100.4  147.91929
100.3  137.88765
100.2  142.83688
100.1  158.22189
100  153.40354
99.9  157.82906
99.8  157.81544
99.7  146.62106
99.6  156.20543
99.5  125.89449
99.4  127.90264
99.3  141.17348
99.2  132.49623
99.1  115.75487
99  136.96133
98.9  128.36576
98.8  121.13359
98.7  135.09803
98.6  133.82947
98.5  108.81649
98.4  127.89316
98.3  135.33703
98.2  122.1915
98.1  134.18345
98  123.89313
97.9  125.43382
97.8  143.83237
97.7  133.74222
97.6  119.119
97.5  121.94717
97.4  123.13269
97.3  124.77407
97.2  122.90852
97.1  122.50655
97  126.72793
96.9  128.0954
96.8  136.5324
96.7  121.40229
96.6  135.09488
96.5  135.04671
96.4  117.76811
96.3  143.09239
96.2  118.13472
96.1  126.45984
96  116.52024
95.9  112.93801
95.8  108.12123
95.7  104.67631
95.6  126.61928
95.5  119.84289
95.4  113.00665
95.3  122.18903
95.2  133.40234
95.1  116.63716
95  132.51192

