# Created by:        SpecsLab Prodigy, Version 4.50.2-r79252 
#
# XY-Serializer Export Settings:
#   Comment Prefix:           #
#   Output meta data:         yes
#   Energy Axis:              Binding Energy
#   Count Rate:               Counts per Second
#   Separate Scan Data:       no
#   Separate Channel Data:    no
#   External Channel Data:    yes
#   Transmission Function:    no
#   ErrorBar:                 no
#   Operation Results:        yes
#   Time Zone Format:         UTC
#
# Group:             Spectrum Group 25
#
# Region:            Si2p
# Acquisition Date:  10/31/19 01:14:41 UTC
# Analysis Method:   XPS
# Analyzer:          Phoibos
# Analyzer Lens:     MediumArea:1.5kV
# Analyzer Slit:     5:7x20\B:open
# Scan Mode:         FixedAnalyzerTransmission
# Curves/Scan:       1
# Values/Curve:      161
# Dwell Time:        0.1
# Excitation Energy: 1486.71
# Binding Energy:    108
# Pass Energy:       10
# Bias Voltage:      90
# Detector Voltage:  1900
# Eff. Workfunction: 4.395
# Source:            Focus
# Comment:           
#
# Cycle: 0
# Number of Scans: 15
#
# Cycle: 0, Curve: 0
# Acquisition Date: 10/31/19 01:14:41 UTC
#
# ColumnLabels: energy counts/s
#
108  106.19051
107.9  112.02647
107.8  108.60318
107.7  108.73292
107.6  106.10589
107.5  107.88507
107.4  116.52365
107.3  117.68599
107.2  105.15101
107.1  106.12676
107  99.818406
106.9  95.163592
106.8  107.9911
106.7  115.41985
106.6  115.92817
106.5  105.3144
106.4  110.20312
106.3  118.89462
106.2  150.17445
106.1  163.10643
106  152.95265
105.9  186.44494
105.8  210.01485
105.7  262.20482
105.6  322.34624
105.5  398.99599
105.4  517.96324
105.3  632.70884
105.2  745.91085
105.1  917.85802
105  1104.1626
104.9  1325.473
104.8  1555.4917
104.7  1768.9032
104.6  1978.7349
104.5  2142.6144
104.4  2275.517
104.3  2392.1453
104.2  2366.6369
104.1  2292.2119
104  2365.139
103.9  2200.9124
103.8  2050.8616
103.7  1851.0716
103.6  1654.7373
103.5  1425.0831
103.4  1272.6798
103.3  1161.1947
103.2  1048.7312
103.1  954.5239
103  913.67901
102.9  887.65816
102.8  816.91881
102.7  886.83498
102.6  851.61894
102.5  766.25917
102.4  695.99182
102.3  641.56599
102.2  526.46966
102.1  446.088
102  361.62682
101.9  281.70439
101.8  226.55582
101.7  197.66273
101.6  157.63869
101.5  142.52438
101.4  127.91775
101.3  123.61417
101.2  120.85481
101.1  109.63009
101  100.43989
100.9  106.27802
100.8  115.19634
100.7  112.19988
100.6  104.36752
100.5  109.00534
100.4  125.53744
100.3  114.30086
100.2  115.23804
100.1  111.0522
100  101.9823
99.9  119.32676
99.8  117.96711
99.7  107.44249
99.6  117.55108
99.5  101.77367
99.4  94.62379
99.3  91.633052
99.2  107.13577
99.1  104.4886
99  113.11059
98.9  98.947284
98.8  97.357497
98.7  89.471089
98.6  96.264731
98.5  103.45106
98.4  102.07925
98.3  110.03294
98.2  109.57266
98.1  93.275529
98  99.171168
97.9  101.08415
97.8  92.794711
97.7  90.396122
97.6  98.885957
97.5  101.90659
97.4  106.1383
97.3  109.65021
97.2  91.397747
97.1  103.84164
97  105.46629
96.9  110.8888
96.8  103.37983
96.7  98.300244
96.6  103.88236
96.5  95.067495
96.4  85.824824
96.3  100.16344
96.2  99.869593
96.1  89.383287
96  95.965106
95.9  105.22943
95.8  104.16036
95.7  98.117848
95.6  96.344502
95.5  97.444199
95.4  94.485276
95.3  95.433382
95.2  99.801746
95.1  103.79051
95  99.913857
94.9  98.936617
94.8  99.853191
94.7  103.81128
94.6  106.54543
94.5  106.5795
94.4  89.455695
94.3  112.98905
94.2  104.69203
94.1  105.7127
94  88.99464
93.9  90.690641
93.8  107.40302
93.7  107.87289
93.6  96.091467
93.5  109.20915
93.4  109.85025
93.3  93.144879
93.2  82.991946
93.1  89.674831
93  108.4496
92.9  110.74826
92.8  100.7489
92.7  97.622385
92.6  97.898856
92.5  99.382559
92.4  92.402366
92.3  107.40607
92.2  105.4354
92.1  113.36037
92  107.51524

