# Created by:        SpecsLab Prodigy, Version 4.50.2-r79252 
#
# XY-Serializer Export Settings:
#   Comment Prefix:           #
#   Output meta data:         yes
#   Energy Axis:              Binding Energy
#   Count Rate:               Counts per Second
#   Separate Scan Data:       no
#   Separate Channel Data:    no
#   External Channel Data:    yes
#   Transmission Function:    no
#   ErrorBar:                 no
#   Operation Results:        yes
#   Time Zone Format:         UTC
#
# Group:             Spectrum Group 5
#
# Region:            Si2p
# Acquisition Date:  10/31/19 00:30:44 UTC
# Analysis Method:   XPS
# Analyzer:          Phoibos
# Analyzer Lens:     MediumArea:1.5kV
# Analyzer Slit:     5:7x20\B:open
# Scan Mode:         FixedAnalyzerTransmission
# Curves/Scan:       1
# Values/Curve:      421
# Dwell Time:        0.1
# Excitation Energy: 1486.71
# Binding Energy:    137
# Pass Energy:       10
# Bias Voltage:      90
# Detector Voltage:  1900
# Eff. Workfunction: 4.395
# Source:            Focus
# Comment:           
#
# Cycle: 0
# Number of Scans: 15
#
# Cycle: 0, Curve: 0
# Acquisition Date: 10/31/19 00:30:44 UTC
#
# ColumnLabels: energy counts/s
#
137  402.661
136.9  379.54692
136.8  370.93468
136.7  376.78983
136.6  374.60946
136.5  368.90546
136.4  344.10573
136.3  370.59266
136.2  368.58701
136.1  366.75316
136  377.08865
135.9  362.64602
135.8  369.88081
135.7  376.95015
135.6  371.58941
135.5  368.71616
135.4  366.51541
135.3  369.10625
135.2  372.1568
135.1  380.04683
135  358.70855
134.9  368.69917
134.8  370.12105
134.7  394.48563
134.6  406.2123
134.5  357.46653
134.4  349.14502
134.3  395.95268
134.2  387.19376
134.1  390.09136
134  370.72019
133.9  359.06034
133.8  362.55672
133.7  361.64133
133.6  361.92754
133.5  362.8968
133.4  361.38926
133.3  390.45793
133.2  374.85203
133.1  361.98693
133  363.51648
132.9  387.29532
132.8  367.97521
132.7  394.67574
132.6  365.34497
132.5  348.86091
132.4  363.90814
132.3  376.11725
132.2  392.71712
132.1  364.50937
132  374.87735
131.9  360.00071
131.8  349.03046
131.7  395.42386
131.6  380.30645
131.5  374.74758
131.4  381.76155
131.3  368.89004
131.2  377.95297
131.1  399.88169
131  370.29181
130.9  384.91009
130.8  403.3545
130.7  405.98967
130.6  372.67694
130.5  403.96621
130.4  407.33494
130.3  413.61757
130.2  402.65069
130.1  390.04602
130  398.63679
129.9  437.09288
129.8  426.30446
129.7  428.63849
129.6  407.64572
129.5  408.16947
129.4  426.41245
129.3  411.88735
129.2  410.45807
129.1  400.33789
129  421.05704
128.9  415.77221
128.8  442.29736
128.7  462.0635
128.6  445.61133
128.5  412.42559
128.4  416.65923
128.3  426.49133
128.2  422.7885
128.1  413.58176
128  443.71376
127.9  461.69904
127.8  461.74834
127.7  444.78646
127.6  447.15143
127.5  448.16482
127.4  455.48808
127.3  442.88238
127.2  436.79927
127.1  454.76371
127  451.82337
126.9  467.77996
126.8  467.17269
126.7  453.10428
126.6  462.08718
126.5  449.31064
126.4  451.3904
126.3  482.48294
126.2  431.40382
126.1  446.64612
126  433.9882
125.9  433.8011
125.8  451.70597
125.7  454.59283
125.6  467.10902
125.5  462.47716
125.4  458.7335
125.3  446.56336
125.2  427.32165
125.1  451.43562
125  457.81548
124.9  439.07499
124.8  430.93592
124.7  432.8023
124.6  422.38198
124.5  428.64132
124.4  449.11766
124.3  445.18256
124.2  433.37357
124.1  422.91887
124  456.95498
123.9  466.31684
123.8  421.71036
123.7  436.70305
123.6  426.74279
123.5  425.40874
123.4  423.84822
123.3  425.6732
123.2  427.7695
123.1  415.19232
123  420.44793
122.9  413.94542
122.8  411.13954
122.7  406.43637
122.6  406.64865
122.5  414.26247
122.4  432.73595
122.3  393.28148
122.2  410.64707
122.1  387.93093
122  367.16008
121.9  389.56761
121.8  407.38177
121.7  402.2771
121.6  413.16937
121.5  388.78373
121.4  376.78061
121.3  390.01692
121.2  352.59068
121.1  358.3624
121  397.11221
120.9  382.1167
120.8  392.15253
120.7  360.98125
120.6  363.09885
120.5  382.50001
120.4  400.83551
120.3  379.49124
120.2  389.78047
120.1  368.29714
120  353.332
119.9  370.49057
119.8  373.25368
119.7  373.88295
119.6  387.88083
119.5  381.46406
119.4  357.81755
119.3  345.81128
119.2  357.80119
119.1  347.26821
119  347.16442
118.9  342.0576
118.8  345.34937
118.7  329.77999
118.6  352.69316
118.5  346.68713
118.4  327.12746
118.3  316.10944
118.2  308.37744
118.1  311.47451
118  341.03744
117.9  327.31458
117.8  317.2695
117.7  317.91067
117.6  288.251
117.5  317.68198
117.4  309.20102
117.3  280.04157
117.2  275.27581
117.1  308.977
117  285.36166
116.9  292.29768
116.8  281.07615
116.7  305.00904
116.6  274.31
116.5  265.33267
116.4  262.00587
116.3  258.41556
116.2  269.599
116.1  245.08673
116  245.59178
115.9  280.56929
115.8  279.92644
115.7  267.0905
115.6  246.26668
115.5  245.21286
115.4  252.24821
115.3  237.83222
115.2  244.8163
115.1  238.50876
115  219.41816
114.9  222.69358
114.8  220.1819
114.7  232.37053
114.6  216.10182
114.5  211.45474
114.4  187.72632
114.3  191.24028
114.2  200.87098
114.1  179.62872
114  196.66819
113.9  198.38111
113.8  189.49412
113.7  175.53881
113.6  199.54133
113.5  179.94583
113.4  170.26549
113.3  159.55279
113.2  162.65819
113.1  175.14848
113  157.29243
112.9  145.94756
112.8  154.08126
112.7  131.29951
112.6  135.60918
112.5  135.69609
112.4  144.63866
112.3  151.48327
112.2  136.60885
112.1  151.62748
112  163.8506
111.9  156.75975
111.8  152.52889
111.7  145.7393
111.6  140.41616
111.5  151.31434
111.4  143.20053
111.3  129.52965
111.2  143.88759
111.1  137.27723
111  142.28174
110.9  127.89646
110.8  124.89746
110.7  138.30729
110.6  131.48165
110.5  133.99648
110.4  121.9935
110.3  134.76918
110.2  124.93232
110.1  147.34927
110  133.65678
109.9  131.68943
109.8  124.23184
109.7  126.4833
109.6  116.90728
109.5  124.25096
109.4  139.68392
109.3  140.05932
109.2  130.28213
109.1  116.98065
109  116.88274
108.9  123.92975
108.8  120.39012
108.7  118.05773
108.6  123.39655
108.5  127.23134
108.4  123.87406
108.3  123.12674
108.2  132.05512
108.1  128.84139
108  123.08043
107.9  127.63265
107.8  124.00087
107.7  132.99463
107.6  138.81483
107.5  132.88971
107.4  140.45312
107.3  132.49315
107.2  129.86658
107.1  134.85056
107  130.84204
106.9  131.73467
106.8  140.53374
106.7  147.09845
106.6  144.54082
106.5  139.71077
106.4  134.33471
106.3  158.14412
106.2  165.99987
106.1  173.89742
106  187.63817
105.9  225.73457
105.8  262.36183
105.7  316.59379
105.6  401.33797
105.5  514.66061
105.4  630.06133
105.3  804.17578
105.2  969.98447
105.1  1215.8388
105  1420.6606
104.9  1694.8857
104.8  1944.29
104.7  2240.2477
104.6  2445.197
104.5  2701.3306
104.4  2774.8223
104.3  2982.2962
104.2  3025.6644
104.1  2987.7743
104  2964.2648
103.9  2695.0288
103.8  2501.5993
103.7  2343.3893
103.6  2035.3649
103.5  1808.9706
103.4  1566.0426
103.3  1355.2851
103.2  1257.2834
103.1  1165.9894
103  1102.2892
102.9  1049.2107
102.8  1044.5521
102.7  965.88171
102.6  958.46912
102.5  883.4503
102.4  777.5176
102.3  702.97716
102.2  611.17083
102.1  485.81247
102  372.99148
101.9  306.36873
101.8  251.00422
101.7  225.54603
101.6  188.15168
101.5  167.22902
101.4  149.3892
101.3  135.88331
101.2  139.05048
101.1  126.54243
101  138.80077
100.9  135.58411
100.8  120.54602
100.7  132.82226
100.6  136.44574
100.5  139.35841
100.4  136.88377
100.3  139.80373
100.2  143.39788
100.1  139.85749
100  132.06298
99.9  127.9279
99.8  143.58754
99.7  142.11696
99.6  131.87916
99.5  132.83113
99.4  122.86219
99.3  120.93606
99.2  131.57105
99.1  122.48229
99  120.29485
98.9  121.825
98.8  122.52639
98.7  121.79062
98.6  130.90779
98.5  136.53133
98.4  120.15766
98.3  123.85996
98.2  123.86802
98.1  138.17086
98  132.20963
97.9  115.74115
97.8  119.191
97.7  127.71019
97.6  124.77435
97.5  120.70797
97.4  118.20043
97.3  120.30615
97.2  134.1829
97.1  121.43819
97  126.12811
96.9  120.67779
96.8  126.05815
96.7  131.47867
96.6  129.77658
96.5  118.22465
96.4  118.23353
96.3  116.83592
96.2  118.98493
96.1  128.46635
96  129.43578
95.9  132.60421
95.8  132.5165
95.7  125.58713
95.6  112.10144
95.5  127.27576
95.4  117.44645
95.3  109.04614
95.2  124.55337
95.1  135.93134
95  128.69949

