# Created by:        SpecsLab Prodigy, Version 4.50.2-r79252 
#
# XY-Serializer Export Settings:
#   Comment Prefix:           #
#   Output meta data:         yes
#   Energy Axis:              Binding Energy
#   Count Rate:               Counts per Second
#   Separate Scan Data:       no
#   Separate Channel Data:    no
#   External Channel Data:    yes
#   Transmission Function:    no
#   ErrorBar:                 no
#   Operation Results:        yes
#   Time Zone Format:         UTC
#
# Group:             Spectrum Group 55
#
# Region:            Si2p
# Acquisition Date:  10/31/19 02:07:19 UTC
# Analysis Method:   XPS
# Analyzer:          Phoibos
# Analyzer Lens:     MediumArea:1.5kV
# Analyzer Slit:     5:7x20\B:open
# Scan Mode:         FixedAnalyzerTransmission
# Curves/Scan:       1
# Values/Curve:      161
# Dwell Time:        0.1
# Excitation Energy: 1486.71
# Binding Energy:    108
# Pass Energy:       10
# Bias Voltage:      90
# Detector Voltage:  1900
# Eff. Workfunction: 4.395
# Source:            Focus
# Comment:           
#
# Cycle: 0
# Number of Scans: 15
#
# Cycle: 0, Curve: 0
# Acquisition Date: 10/31/19 02:07:19 UTC
#
# ColumnLabels: energy counts/s
#
108  41.938168
107.9  43.50038
107.8  50.852346
107.7  46.250257
107.6  41.078072
107.5  41.735872
107.4  40.723439
107.3  45.784093
107.2  39.145682
107.1  46.893114
107  47.270429
106.9  49.896268
106.8  48.566193
106.7  48.526256
106.6  48.823395
106.5  44.765198
106.4  48.536162
106.3  51.829942
106.2  57.446768
106.1  59.444984
106  62.589675
105.9  73.964636
105.8  72.546353
105.7  86.280469
105.6  100.09817
105.5  106.81773
105.4  138.16649
105.3  170.27592
105.2  210.42983
105.1  229.0063
105  270.9508
104.9  323.77744
104.8  393.23431
104.7  433.66303
104.6  461.29496
104.5  552.15589
104.4  565.77144
104.3  591.06594
104.2  608.66962
104.1  581.9202
104  571.2546
103.9  587.63669
103.8  540.89951
103.7  537.34756
103.6  503.45859
103.5  511.9667
103.4  501.24068
103.3  474.45215
103.2  479.45698
103.1  426.19272
103  437.96876
102.9  438.80686
102.8  456.68731
102.7  478.57258
102.6  446.84323
102.5  397.60773
102.4  382.89856
102.3  310.75381
102.2  253.98032
102.1  236.34203
102  174.96163
101.9  134.49123
101.8  108.21489
101.7  79.619088
101.6  64.995315
101.5  55.980232
101.4  56.313298
101.3  56.080071
101.2  48.279757
101.1  53.619796
101  50.803679
100.9  45.224598
100.8  50.075835
100.7  40.364992
100.6  40.756391
100.5  49.899108
100.4  44.203093
100.3  45.704665
100.2  41.115384
100.1  53.951359
100  51.586879
99.9  48.563137
99.8  47.23431
99.7  50.196466
99.6  41.125993
99.5  55.406
99.4  47.634527
99.3  45.643089
99.2  43.317481
99.1  42.572171
99  46.029028
98.9  44.061651
98.8  45.584006
98.7  49.163257
98.6  43.457824
98.5  40.828958
98.4  37.547911
98.3  38.103529
98.2  42.122516
98.1  47.961693
98  46.23855
97.9  41.913706
97.8  43.714572
97.7  43.818689
97.6  45.397708
97.5  44.309606
97.4  38.85406
97.3  48.044212
97.2  55.771751
97.1  43.909877
97  31.812286
96.9  40.373648
96.8  44.086391
96.7  48.024793
96.6  42.271834
96.5  45.933898
96.4  38.648585
96.3  49.271005
96.2  50.278784
96.1  48.145441
96  44.75678
95.9  51.948481
95.8  41.686965
95.7  50.090907
95.6  50.989843
95.5  42.890563
95.4  46.097695
95.3  48.679379
95.2  48.636459
95.1  45.690616
95  45.937034
94.9  46.602475
94.8  49.437572
94.7  41.22484
94.6  38.201828
94.5  37.535078
94.4  44.579177
94.3  39.42833
94.2  46.988437
94.1  51.271719
94  44.101341
93.9  51.426419
93.8  47.591688
93.7  56.066515
93.6  50.574711
93.5  40.497619
93.4  45.403561
93.3  45.788477
93.2  48.476981
93.1  48.906133
93  44.076991
92.9  35.879145
92.8  45.697652
92.7  50.890884
92.6  49.809147
92.5  49.089395
92.4  43.130164
92.3  37.930573
92.2  40.926201
92.1  31.462909
92  44.489577

